<?xml version="1.0" encoding="UTF-8"?><ImplementationGuide xmlns="http://hl7.org/fhir"><id value="ig"/><meta><versionId value="10"/><lastUpdated value="2019-01-12T13:21:21.871-05:00"/></meta><contained><Binary><id value="7031"/><content value="ion/octet-stream;base64,"/></Binary></contained><contained><Binary><id value="5785"/><contentType value="text/markdown"/><content value="Tm8gcGFnZSBjb250ZW50IHlldA=="/></Binary></contained><extension url="https://trifolia-on-fhir.lantanagroup.com/StructureDefinition/extension-ig-dependency"><extension url="https://trifolia-on-fhir.lantanagroup.com/StructureDefinition/extension-ig-dependency-name"><valueString value="uscore"/></extension><extension url="https://trifolia-on-fhir.lantanagroup.com/StructureDefinition/extension-ig-dependency-location"><valueUri value="http://hl7.org/fhir/us/core"/></extension><extension url="https://trifolia-on-fhir.lantanagroup.com/StructureDefinition/extension-ig-dependency-version"><valueString value="1.0.1"/></extension></extension><extension url="https://trifolia-fhir.lantanagroup.com/stu3/StructureDefinition/github-branch"><valueString value="master"/></extension><extension url="https://trifolia-fhir.lantanagroup.com/stu3/StructureDefinition/github-path"><valueString value="HL7/NHSN-LTC/resources/implementationguide/ig.xml"/></extension><url value="http://hl7.org/fhir/us/ecr/ImplementationGuide/ig"/><version value="0.0.1"/><name value="Connectathon 20 Test"/><status value="draft"/><experimental value="true"/><publisher value="HL7 FHIR Connectathorn"/><description value="This is the IG description"/><fhirVersion value="3.0.1"/><package><name value="default"/><resource><example value="false"/><sourceReference><reference value="StructureDefinition/eicr-condition"/><display value="eicr-condition"/></sourceReference></resource></package><page><extension url="https://trifolia-on-fhir.lantanagroup.com/StructureDefinition/extension-ig-page-content"><valueReference><reference value="#7031"/><display value="Page content 7031"/></valueReference></extension><source value="index.md"/><title value="Connectathon 20 Test"/><kind value="page"/><format value="markdown"/><page><extension url="https://trifolia-on-fhir.lantanagroup.com/StructureDefinition/extension-ig-page-content"><valueReference><reference value="#5785"/><display value="Page content 5785"/></valueReference></extension><source value="TOC.md"/><title value="Table of Contents"/><kind value="toc"/></page></page></ImplementationGuide>