{"resourceType":"ImplementationGuide","id":"ig","meta":{"versionId":"11","lastUpdated":"2019-01-12T15:35:04.783-05:00"},"contained":[{"resourceType":"Binary","id":"7031","data":""},{"resourceType":"Binary","id":"5785","contentType":"text/markdown","data":"Tm8gcGFnZSBjb250ZW50IHlldA=="}],"extension":[{"extension":[{"url":"https://trifolia-on-fhir.lantanagroup.com/StructureDefinition/extension-ig-dependency-name","valueString":"uscore"},{"url":"https://trifolia-on-fhir.lantanagroup.com/StructureDefinition/extension-ig-dependency-location","valueUri":"http://hl7.org/fhir/us/core"},{"url":"https://trifolia-on-fhir.lantanagroup.com/StructureDefinition/extension-ig-dependency-version","valueString":"1.0.1"}],"url":"https://trifolia-on-fhir.lantanagroup.com/StructureDefinition/extension-ig-dependency"},{"url":"https://trifolia-fhir.lantanagroup.com/stu3/StructureDefinition/github-branch","valueString":"master"},{"url":"https://trifolia-fhir.lantanagroup.com/stu3/StructureDefinition/github-path","valueString":"HL7/NHSN-LTC/resources/implementationguide/ig.xml"},{"url":"http://hl7.org/fhir/StructureDefinition/igpublisher-folder-resource","valueString":"C:\\Windows\\Temp\\tmp-3996rK3CpCyZRCjU\\source\\resources"},{"url":"http://hl7.org/fhir/StructureDefinition/igpublisher-folder-pages","valueString":"C:\\Windows\\Temp\\tmp-3996rK3CpCyZRCjU\\framework"},{"url":"http://hl7.org/fhir/StructureDefinition/igpublisher-folder-pages","valueString":"C:\\Windows\\Temp\\tmp-3996rK3CpCyZRCjU\\source\\pages"}],"url":"http://hl7.org/fhir/us/ecr/ImplementationGuide/ig","version":"0.0.1","name":"Connectathon 20 Test","status":"draft","experimental":true,"publisher":"HL7 FHIR Connectathorn","description":"This is the IG description","packageId":"ig-npm","license":"CC0-1.0","fhirVersion":"3.0.1","definition":{"package":[{"id":"p1","name":"default"}],"resource":[{"reference":{"reference":"StructureDefinition/eicr-condition","display":"eicr-condition"},"exampleBoolean":false,"package":"p1"}],"page":{"extension":[{"url":"https://trifolia-on-fhir.lantanagroup.com/StructureDefinition/extension-ig-page-content","valueReference":{"reference":"#7031","display":"Page content 7031"}}],"nameUrl":"index.md","title":"Connectathon 20 Test","generation":"html","page":[{"extension":[{"url":"https://trifolia-on-fhir.lantanagroup.com/StructureDefinition/extension-ig-page-content","valueReference":{"reference":"#5785","display":"Page content 5785"}}],"nameUrl":"TOC.md","title":"Table of Contents","generation":"generated"}]},"parameter":[{"code":"generate-json","value":"true"},{"code":"generate-xml","value":"true"},{"code":"generate-turtle","value":"true"}]}}